File: tutorial_3_wulff_shapes/data/xrd_vo2.csv
Dataset 0,
X,Y
20.0793,2.27875
20.1797,2.47363
20.2723,2.71723
20.3804,2.91211
20.473,3.25315
20.5425,3.78906
20.6274,4.32498
20.6815,4.71473
20.7355,4.32498
20.8204,4.61729
20.9054,4.71473
20.9903,4.71473
21.0521,4.51986
21.0907,4.22754
21.1293,3.93522
21.1679,3.78906
21.2219,3.6429
21.2991,3.6429
21.3377,3.83778
21.384,4.1301
21.4612,4.32498
21.5153,4.27626
21.5461,4.03266
21.577,3.93522
21.6079,3.78906
21.6311,3.69162
21.6774,3.6429
21.7314,3.74034
21.7932,3.74034
21.8318,3.74034
21.8781,3.78906
21.9244,3.59418
21.9476,3.44802
21.9707,3.30186
22.0248,3.05827
22.0634,3.05827
22.1097,3.10699
22.1483,3.30186
22.1792,3.35058
22.2024,3.44802
22.2487,3.44802
22.2641,3.44802
22.295,3.44802
22.3336,3.35058
22.3722,3.15571
22.3876,2.86339
22.4108,2.66851
22.4185,2.52235
22.4494,2.27875
22.542,2.47363
22.4957,2.37619
22.5961,2.66851
22.6347,2.86339
22.6887,2.96083
22.7582,3.05827
22.8354,3.05827
22.8663,2.91211
22.8972,3.05827
22.9435,3.30186
23.0207,3.44802
23.0516,3.44802
23.0979,3.44802
23.1751,3.49674
23.206,3.3993
23.2986,3.25315
23.2523,3.25315
23.3449,3.25315
23.4067,3.35058
23.4299,3.25315
23.4933,3.15841
23.5255,3.32758
23.5738,3.53058
23.6327,3.53058
23.6649,3.49674
23.7078,3.39524
23.7721,3.25991
23.8365,3.02308
23.8847,2.95541
23.933,3.02308
24.0134,3.19225
24.0884,3.36141
24.126,3.36141
24.1688,3.19225
24.2117,3.09075
24.2653,3.42908
24.3297,3.32758
24.3726,3.29374
24.4155,3.22608
24.4744,3.19225
24.512,2.98925
24.5656,3.15841
24.5977,3.46291
24.6406,3.69974
24.6674,3.53058
24.6889,3.32758
24.705,3.15841
24.7586,2.82008
24.8015,2.44792
24.8336,2.04192
24.8873,1.60209
24.9462,0.925429
24.9998,0.587098
25.0534,0.181102
25.1124,0.113435
25.15,0.3841
25.2089,0.756264
25.2196,1.12843
25.2572,1.53442
25.284,2.14342
25.2733,2.75242
25.3001,3.36141
25.3161,3.80124
25.3644,4.54557
25.3858,5.05306
25.4019,5.35756
25.4448,5.72973
25.4823,5.3914
25.5306,4.7824
25.5574,4.30874
25.6003,3.76741
25.6217,3.29374
25.6485,2.82008
25.7772,2.14342
25.8415,1.97425
25.9059,1.97425
25.9434,1.80509
25.9863,1.56826
26.0292,1.39909
26.1096,0.959262
26.1954,0.350267
26.2597,0.248768
26.3401,0.0457692
26.4259,-0.05573
26.5117,-0.0895631
26.5868,0.147268
26.6404,0.654765
26.6833,1.43293
26.7315,2.27875
26.7637,3.05691
26.7905,4.03807
26.8548,4.61323
26.9192,4.95157
26.9781,5.0869
27.0371,5.05306
27.0639,4.4779
27.08,3.76741
27.1014,3.12458
27.1229,2.48175
27.1604,1.77126
27.1926,1.02693
27.2194,0.417933
27.2784,-0.0895631
27.3373,0.0119361
27.3909,0.350267
27.4392,1.12843
27.4553,1.83892
27.466,2.54942
27.4982,3.42908
27.5196,4.2749
27.5411,5.05306
27.5411,5.93272
27.5518,6.88005
27.5839,8.09804
27.5732,9.14687
27.5786,10.4664
27.6107,11.4813
27.6107,12.767
27.6107,13.6128
27.6107,15.5075
27.6268,17.2668
27.6376,18.9585
27.6322,20.6163
27.659,22.1726
27.6804,23.3229
27.6804,24.9807
27.6912,26.3002
27.6965,28.0257
27.7019,30.5294
27.7233,32.6609
27.7448,34.8262
27.7448,36.3825
27.7501,38.8185
27.7287,40.7131
27.7341,42.4048
27.7394,44.2994
27.7394,46.0926
27.7555,48.7654
27.7716,50.6939
27.7769,52.3179
27.7769,54.4494
27.8466,56.4455
27.9485,54.72
28.0075,52.69
28.045,50.0849
28.045,48.2241
28.045,46.2618
28.0557,43.8258
28.0557,42.2695
28.0611,40.6793
28.1147,38.4801
28.1201,37.093
28.1361,35.6382
28.1201,34.0142
28.1415,31.9842
28.1361,30.9692
28.1361,29.5482
28.1361,28.4656
28.163,26.7062
28.1522,25.4206
28.1737,23.7289
28.1683,22.6124
28.1683,21.2591
28.1898,19.7366
28.1844,18.248
28.1844,16.6916
28.1951,15.1692
28.2219,13.0038
28.2487,11.346
28.2541,9.11303
28.2916,7.04922
28.3345,5.32373
28.3774,4.13957
28.4578,3.15841
28.5168,2.31259
28.6508,1.39909
28.8706,0.993095
29.0207,1.63592
29.1387,2.51558
29.2566,2.71858
29.3907,2.00809
29.5408,1.43293
29.6963,0.925429
29.9,-0.0218969
30.0394,0.451766
30.1359,1.26376
30.2646,2.00809
30.3932,1.77126
30.5273,1.56826
30.6452,1.53442
30.79,0.756264
30.8757,0.485599
30.9722,0.891596
31.0902,1.43293
31.1492,1.09459
31.2188,0.553265
31.3636,0.688598
31.7335,0.688598
31.9694,0.756264
31.5137,0.688598
32.0927,0.790097
32.2911,0.722431
32.4305,0.790097
32.5377,0.350267
32.7897,0.350267
32.9076,0.113435
32.988,0.113435
33.0953,0.113435
33.2239,0.485599
33.165,0.147268
33.2936,1.12843
33.3741,1.56826
33.5081,1.83892
33.6314,1.53442
33.685,1.26376
33.744,0.891596
33.8458,0.959262
33.9692,0.959262
34.1193,0.756264
34.2265,0.587098
34.3337,0.316434
34.457,0.316434
34.5374,0.350267
34.6554,-0.0895631
34.768,0.0119361
34.8752,0.485599
34.9663,0.3841
35.1004,0.214935
35.3416,0.248768
35.213,0.147268
35.5293,-0.0895631
35.7062,0.147268
35.867,0.113435
36.0279,0.147268
36.1404,0.248768
36.253,0.147268
36.3603,0.620932
36.4621,1.29759
36.5747,2.14342
36.6658,3.39524
36.7034,4.81623
36.7623,6.10189
36.7516,7.38755
36.7516,8.47021
36.7892,9.75586
36.8106,10.94
36.832,12.3272
36.816,13.8158
36.8374,15.2707
36.8481,15.9473
36.8535,16.7593
36.8642,17.9773
36.8803,19.2968
36.8803,20.9546
36.9125,21.8681
36.9071,22.9846
36.9017,24.1688
36.9339,25.3529
36.95,26.1987
36.9875,27.4506
37.0465,28.4994
37.1215,28.0934
37.1752,26.8754
37.202,25.7251
37.2073,24.4056
37.2449,22.8493
37.2449,21.5636
37.2502,20.4809
37.2609,18.857
37.2717,17.3006
37.2824,16.3871
37.2824,15.0677
37.3146,13.6805
37.3253,11.8873
37.3253,10.6017
37.336,9.11303
37.336,7.96271
37.3628,6.67705
37.3521,5.3914
37.4111,4.10574
37.5076,2.41408
37.4325,3.05691
37.5665,1.50059
37.6523,1.02693
37.7434,0.3841
37.856,-0.0218969
37.9901,0.0796023
38.1134,0.0796023
38.2367,0.316434
38.3493,0.113435
38.4887,0.113435
38.6388,0.113435
38.7835,-0.0895631
38.8907,0.214935
38.9712,0.0796023
39.0891,0.214935
39.2071,0.3841
39.3196,0.316434
39.4322,0.282601
39.5287,0.959262
39.6306,1.70359
39.7432,2.58325
39.829,3.15841
39.8879,2.54942
39.9362,1.94042
39.9791,1.19609
40.0649,0.485599
40.1292,0.147268
40.2203,-0.05573
40.3436,0.113435
40.4723,-0.05573
40.5581,0.350267
40.6224,0.82393
40.6868,0.553265
40.7618,0.248768
40.8154,-0.157229
40.8958,-0.05573
41.0138,0.181102
41.1157,0.3841
41.2122,0.722431
41.3087,0.722431
41.4159,0.82393
41.507,1.22993
41.5767,1.63592
41.6518,1.97425
41.7268,2.38025
41.818,2.98925
41.8716,3.83507
41.8984,4.7824
41.9198,5.49289
41.9359,6.40639
41.9627,6.91388
41.9949,7.86121
42.0056,9.04537
42.0163,9.75586
42.0271,10.6017
42.0592,11.4475
42.0807,12.2257
42.1182,12.7332
42.1504,12.5302
42.1772,12.2595
42.2469,12.2933
42.2683,12.6993
42.2951,12.767
42.3487,12.4963
42.3863,11.5152
42.4023,10.8385
42.4184,10.0604
42.4184,9.34987
42.4452,8.36871
42.456,7.42138
42.472,6.64322
42.5042,5.76356
42.5525,4.81623
42.5578,3.90274
42.59,2.92158
42.6168,2.14342
42.6811,1.46676
42.7776,0.891596
42.8634,0.451766
42.9599,0.0796023
43.0564,0.147268
43.1422,0.316434
43.2601,-0.05573
43.3298,0.113435
43.4531,0.417933
43.5443,0.248768
43.6247,-0.123396
43.7212,0.214935
43.8392,0.519432
43.9464,0.925429
44.0161,1.12843
44.1019,1.29759
44.1394,0.993095
44.1984,0.620932
44.2359,0.316434
44.3109,0.0796023
44.4021,0.0796023
44.4557,0.214935
44.5576,0.417933
44.6165,0.722431
44.6809,1.06076
44.713,1.29759
44.7774,1.29759
44.8363,1.06076
44.9168,0.925429
44.9704,0.82393
45.0401,0.891596
45.1527,0.891596
45.2063,0.82393
45.2706,0.451766
45.3403,0.248768
45.3778,0.417933
45.4261,0.553265
45.4743,0.688598
45.5387,0.654765
45.6459,0.350267
45.5923,0.485599
45.7263,0.214935
45.8014,0.350267
45.8925,0.451766
45.9676,0.417933
46.0373,0.350267
46.1016,0.350267
46.2356,0.350267
46.1927,0.350267
46.3,-0.05573
46.4286,-0.123396
46.3643,-0.05573
46.4983,0.282601
46.686,0.214935
46.5734,0.282601
46.761,0.181102
46.8361,0.181102
46.9326,0.181102
47.0505,0.214935
47.1095,0.485599
47.2006,0.485599
47.2757,0.282601
47.34,-0.05573
47.3936,0.181102
47.4955,0.485599
47.5545,0.654765
47.4419,0.350267
47.5866,0.350267
47.6349,0.316434
47.6831,0.0796023
47.7582,0.147268
47.8333,0.147268
47.8761,0.282601
47.9673,0.282601
48.0155,0.147268
48.1174,-0.0218969
48.0584,0.0796023
48.1871,0.248768
48.2514,0.688598
48.2836,0.82393
48.3479,1.02693
48.3801,1.16226
48.4176,1.33143
48.4444,1.16226
48.4659,1.12843
48.5088,1.19609
48.5892,1.29759
48.6321,1.19609
48.6589,1.06076
48.7232,0.82393
48.7715,0.451766
48.8251,0.147268
48.9001,0.214935
48.9591,0.282601
49.0234,0.113435
49.12,0.0796023
49.1736,0.113435
49.2272,0.282601
49.3022,0.417933
49.3612,0.485599
49.3934,0.485599
49.4363,0.688598
49.506,0.756264
49.5435,0.756264
49.5971,0.756264
49.6346,0.722431
49.7365,0.485599
49.8437,0.316434
49.6882,0.654765
49.8973,0.147268
49.9724,0.0119361
50.0206,0.0119361
50.0796,0.0796023
50.1547,0.147268
50.2458,0.0119361
50.3691,-0.0218969
50.3155,0.0119361
50.4388,0.0119361
50.4978,0.0796023
50.5621,0.451766
50.6425,0.519432
50.723,0.417933
50.798,0.316434
50.8516,0.0119361
50.9106,-0.0218969
50.9857,0.0457692
51.0982,0.0457692
51.1947,0.0796023
51.2752,0.0457692
51.3502,0.0457692
51.4306,0.0796023
51.5164,0.147268
51.6344,0.0119361
51.6987,-0.05573
51.7738,0.181102
51.8488,0.282601
51.956,0.0457692
52.0096,0.0457692
52.0793,0.0119361
52.1383,0.0119361
52.2563,0.0119361
52.3152,-0.05573
52.3474,0.0796023
52.4064,0.0796023
52.4707,0.282601
52.5136,0.553265
52.5994,1.02693
52.653,1.50059
52.7012,1.97425
52.8085,2.51558
52.8942,2.51558
52.9693,2.44792
53.0283,2.17725
53.0926,1.90659
53.1623,1.70359
53.2052,1.33143
53.2642,0.959262
53.291,0.654765
53.3339,0.3841
53.3928,0.113435
53.4733,-0.0895631
53.5751,-0.0895631
53.6395,0.282601
53.7467,0.451766
53.7949,0.519432
53.8539,0.417933
53.9022,0.147268
53.9879,0.282601
54.0469,0.519432
54.1434,0.553265
54.197,0.451766
54.2506,0.282601
54.315,0.282601
54.315,0.282601
54.3579,0.519432
54.4115,0.993095
54.4436,1.39909
54.5348,1.87276
54.6152,1.97425
54.4651,1.63592
54.7171,2.00809
54.7814,1.97425
54.8189,1.70359
54.8886,2.68475
54.8618,2.21109
54.9261,3.39524
54.9637,4.13957
54.9905,4.9854
55.0066,5.86506
55.0548,7.21838
55.0709,8.19954
55.0173,6.54172
55.087,9.0792
55.1138,10.2295
55.1138,11.0415
55.146,11.9212
55.1781,12.7332
55.1728,13.8497
55.1781,15.1015
55.2157,16.1503
55.2585,17.1315
55.2585,18.2141
55.2854,19.4321
55.3068,20.3118
55.3175,20.6839
55.3765,21.6313
55.414,21.2253
55.4569,20.7854
55.5373,20.8531
55.5749,21.3268
55.607,21.9358
55.6392,20.9884
55.6714,20.0411
55.7089,18.9585
55.7089,18.0788
55.7357,16.8946
55.7411,15.8796
55.7571,14.8308
55.7893,13.6805
55.8107,12.9023
55.8429,11.5828
55.8644,10.2295
55.8751,8.94387
55.8965,7.52288
55.9073,6.47405
55.9609,5.3914
56.0091,4.20724
56.0627,3.02308
56.1431,2.17725
56.2182,1.39909
56.3147,0.722431
56.4273,0.0457692
56.5399,0.0119361
56.6042,0.519432
56.6685,0.959262
56.7329,1.46676
56.7972,2.14342
56.883,1.97425
56.9956,1.83892
57.0867,1.80509
57.1618,2.14342
57.2315,2.61708
57.2744,3.09075
57.3655,3.36141
57.4245,3.90274
57.4781,4.81623
57.5263,5.66206
57.5907,6.13572
57.6872,5.86506
57.7247,5.12073
57.7783,4.4779
57.8427,3.73357
57.8748,2.95541
57.9123,2.21109
58.0035,1.39909
58.0839,1.09459
58.1482,0.451766
58.234,-0.0218969
58.3466,0.316434
58.4646,0.654765
58.5771,0.3841
58.7112,0.248768
58.813,0.214935
58.9363,0.248768
59.0382,0.181102
59.1401,0.0457692
59.2366,0.3841
59.3331,0.925429
59.3974,0.519432
59.4885,0.113435
59.5904,-0.0218969
59.6762,0.0796023
59.7941,0.451766
59.8531,0.519432